LabVIEW Measurement	
Writer_Version	2
Reader_Version	2
Separator	Tab
Decimal_Separator	,
Multi_Headings	Yes
X_Columns	No
Time_Pref	Relative
Operator	Laboratoire
Date	2019/02/15
Time	14:55:00,8345295833528968884
***End_of_Header***	
	
Channels	6						
Samples	5	5	1000	1000	1000	1000	
Date	2019/02/15	2019/02/15	2019/02/15	2019/02/15	2019/02/15	2019/02/15	
Time	14:55:00,9205298423767089844	14:55:00,8345295833528968884	14:55:00,9205298423767089844	14:55:00,9205298423767089844	14:55:00,9205298423767089844	14:55:00,9205298423767089844	
Y_Unit_Label		Volts					
X_Dimension	Time	Time	Time	Time	Time	Time	
X0	0,0000000000000000E+0	0,0000000000000000E+0	0,0000000000000000E+0	0,0000000000000000E+0	0,0000000000000000E+0	0,0000000000000000E+0	
Delta_X	1,000000	0,020000	1,000000	1,000000	1,000000	1,000000	
***End_of_Header***							
X_Value	Untitled	Tension	Untitled 1	Untitled 2	Untitled 3	Untitled 4	Comment
	0,000000	-4,963249	0,000000	-4,963249	0,000000	-4,963249
	0,020000	-4,953064	8,000000E-5	-4,963388	8,000000E-5	-4,963186
	0,040000	-4,942880	0,000160	-4,963524	0,000160	-4,963124
	0,060000	-4,927603	0,000240	-4,963659	0,000240	-4,963062
	0,080000	-4,917419	0,000320	-4,963791	0,000320	-4,963000
			0,000400	-4,963921	0,000400	-4,962938
			0,000480	-4,964049	0,000480	-4,962877
			0,000560	-4,964174	0,000560	-4,962816
			0,000640	-4,964297	0,000640	-4,962756
			0,000720	-4,964418	0,000720	-4,962695
			0,000800	-4,964537	0,000800	-4,962636
			0,000880	-4,964653	0,000880	-4,962576
			0,000960	-4,964768	0,000960	-4,962516
			0,001040	-4,964879	0,001040	-4,962457
			0,001120	-4,964989	0,001120	-4,962398
			0,001200	-4,965096	0,001200	-4,962340
			0,001280	-4,965201	0,001280	-4,962282
			0,001360	-4,965303	0,001360	-4,962224
			0,001440	-4,965404	0,001440	-4,962166
			0,001520	-4,965501	0,001520	-4,962108
			0,001600	-4,965597	0,001600	-4,962051
			0,001680	-4,965690	0,001680	-4,961994
			0,001760	-4,965781	0,001760	-4,961938
			0,001840	-4,965869	0,001840	-4,961881
			0,001920	-4,965956	0,001920	-4,961825
			0,002000	-4,966039	0,002000	-4,961769
			0,002080	-4,966121	0,002080	-4,961714
			0,002160	-4,966200	0,002160	-4,961658
			0,002240	-4,966277	0,002240	-4,961603
			0,002320	-4,966351	0,002320	-4,961549
			0,002400	-4,966423	0,002400	-4,961494
			0,002480	-4,966493	0,002480	-4,961440
			0,002560	-4,966560	0,002560	-4,961386
			0,002640	-4,966625	0,002640	-4,961332
			0,002720	-4,966688	0,002720	-4,961278
			0,002800	-4,966748	0,002800	-4,961225
			0,002880	-4,966806	0,002880	-4,961172
			0,002960	-4,966862	0,002960	-4,961119
			0,003040	-4,966915	0,003040	-4,961067
			0,003120	-4,966966	0,003120	-4,961014
			0,003200	-4,967014	0,003200	-4,960962
			0,003280	-4,967060	0,003280	-4,960910
			0,003360	-4,967104	0,003360	-4,960859
			0,003440	-4,967146	0,003440	-4,960807
			0,003520	-4,967185	0,003520	-4,960756
			0,003600	-4,967222	0,003600	-4,960705
			0,003680	-4,967256	0,003680	-4,960655
			0,003760	-4,967288	0,003760	-4,960604
			0,003840	-4,967318	0,003840	-4,960554
			0,003920	-4,967346	0,003920	-4,960504
			0,004000	-4,967371	0,004000	-4,960454
			0,004080	-4,967394	0,004080	-4,960404
			0,004160	-4,967415	0,004160	-4,960355
			0,004240	-4,967433	0,004240	-4,960306
			0,004320	-4,967449	0,004320	-4,960257
			0,004400	-4,967463	0,004400	-4,960208
			0,004480	-4,967475	0,004480	-4,960160
			0,004560	-4,967484	0,004560	-4,960112
			0,004640	-4,967491	0,004640	-4,960063
			0,004720	-4,967496	0,004720	-4,960016
			0,004800	-4,967498	0,004800	-4,959968
			0,004880	-4,967499	0,004880	-4,959920
			0,004960	-4,967497	0,004960	-4,959873
			0,005040	-4,967493	0,005040	-4,959826
			0,005120	-4,967486	0,005120	-4,959779
			0,005200	-4,967478	0,005200	-4,959733
			0,005280	-4,967467	0,005280	-4,959686
			0,005360	-4,967454	0,005360	-4,959640
			0,005440	-4,967439	0,005440	-4,959594
			0,005520	-4,967422	0,005520	-4,959548
			0,005600	-4,967403	0,005600	-4,959502
			0,005680	-4,967382	0,005680	-4,959457
			0,005760	-4,967358	0,005760	-4,959412
			0,005840	-4,967332	0,005840	-4,959366
			0,005920	-4,967305	0,005920	-4,959321
			0,006000	-4,967275	0,006000	-4,959277
			0,006080	-4,967243	0,006080	-4,959232
			0,006160	-4,967209	0,006160	-4,959188
			0,006240	-4,967173	0,006240	-4,959144
			0,006320	-4,967135	0,006320	-4,959100
			0,006400	-4,967095	0,006400	-4,959056
			0,006480	-4,967053	0,006480	-4,959012
			0,006560	-4,967009	0,006560	-4,958969
			0,006640	-4,966963	0,006640	-4,958925
			0,006720	-4,966915	0,006720	-4,958882
			0,006800	-4,966865	0,006800	-4,958839
			0,006880	-4,966813	0,006880	-4,958796
			0,006960	-4,966760	0,006960	-4,958754
			0,007040	-4,966704	0,007040	-4,958711
			0,007120	-4,966646	0,007120	-4,958669
			0,007200	-4,966587	0,007200	-4,958627
			0,007280	-4,966526	0,007280	-4,958585
			0,007360	-4,966462	0,007360	-4,958543
			0,007440	-4,966398	0,007440	-4,958501
			0,007520	-4,966331	0,007520	-4,958459
			0,007600	-4,966262	0,007600	-4,958418
			0,007680	-4,966192	0,007680	-4,958377
			0,007760	-4,966120	0,007760	-4,958336
			0,007840	-4,966046	0,007840	-4,958295
			0,007920	-4,965970	0,007920	-4,958254
			0,008000	-4,965893	0,008000	-4,958213
			0,008080	-4,965814	0,008080	-4,958173
			0,008160	-4,965734	0,008160	-4,958133
			0,008240	-4,965651	0,008240	-4,958092
			0,008320	-4,965567	0,008320	-4,958052
			0,008400	-4,965482	0,008400	-4,958012
			0,008480	-4,965395	0,008480	-4,957973
			0,008560	-4,965306	0,008560	-4,957933
			0,008640	-4,965216	0,008640	-4,957893
			0,008720	-4,965124	0,008720	-4,957854
			0,008800	-4,965031	0,008800	-4,957815
			0,008880	-4,964936	0,008880	-4,957776
			0,008960	-4,964840	0,008960	-4,957737
			0,009040	-4,964742	0,009040	-4,957698
			0,009120	-4,964643	0,009120	-4,957659
			0,009200	-4,964542	0,009200	-4,957621
			0,009280	-4,964440	0,009280	-4,957582
			0,009360	-4,964337	0,009360	-4,957544
			0,009440	-4,964232	0,009440	-4,957506
			0,009520	-4,964126	0,009520	-4,957468
			0,009600	-4,964018	0,009600	-4,957430
			0,009680	-4,963910	0,009680	-4,957392
			0,009760	-4,963800	0,009760	-4,957354
			0,009840	-4,963688	0,009840	-4,957316
			0,009920	-4,963576	0,009920	-4,957279
			0,010000	-4,963462	0,010000	-4,957241
			0,010080	-4,963347	0,010080	-4,957204
			0,010160	-4,963231	0,010160	-4,957167
			0,010240	-4,963114	0,010240	-4,957130
			0,010320	-4,962995	0,010320	-4,957093
			0,010400	-4,962876	0,010400	-4,957056
			0,010480	-4,962755	0,010480	-4,957019
			0,010560	-4,962633	0,010560	-4,956983
			0,010640	-4,962511	0,010640	-4,956946
			0,010720	-4,962387	0,010720	-4,956910
			0,010800	-4,962262	0,010800	-4,956873
			0,010880	-4,962137	0,010880	-4,956837
			0,010960	-4,962010	0,010960	-4,956801
			0,011040	-4,961882	0,011040	-4,956765
			0,011120	-4,961754	0,011120	-4,956729
			0,011200	-4,961624	0,011200	-4,956693
			0,011280	-4,961494	0,011280	-4,956657
			0,011360	-4,961363	0,011360	-4,956622
			0,011440	-4,961231	0,011440	-4,956586
			0,011520	-4,961098	0,011520	-4,956551
			0,011600	-4,960964	0,011600	-4,956515
			0,011680	-4,960830	0,011680	-4,956480
			0,011760	-4,960695	0,011760	-4,956445
			0,011840	-4,960559	0,011840	-4,956410
			0,011920	-4,960423	0,011920	-4,956374
			0,012000	-4,960286	0,012000	-4,956340
			0,012080	-4,960148	0,012080	-4,956305
			0,012160	-4,960009	0,012160	-4,956270
			0,012240	-4,959870	0,012240	-4,956235
			0,012320	-4,959731	0,012320	-4,956200
			0,012400	-4,959591	0,012400	-4,956166
			0,012480	-4,959450	0,012480	-4,956131
			0,012560	-4,959309	0,012560	-4,956097
			0,012640	-4,959167	0,012640	-4,956062
			0,012720	-4,959025	0,012720	-4,956028
			0,012800	-4,958882	0,012800	-4,955994
			0,012880	-4,958739	0,012880	-4,955960
			0,012960	-4,958596	0,012960	-4,955926
			0,013040	-4,958452	0,013040	-4,955892
			0,013120	-4,958308	0,013120	-4,955858
			0,013200	-4,958164	0,013200	-4,955824
			0,013280	-4,958019	0,013280	-4,955790
			0,013360	-4,957874	0,013360	-4,955756
			0,013440	-4,957728	0,013440	-4,955723
			0,013520	-4,957583	0,013520	-4,955689
			0,013600	-4,957437	0,013600	-4,955655
			0,013680	-4,957291	0,013680	-4,955622
			0,013760	-4,957145	0,013760	-4,955588
			0,013840	-4,956998	0,013840	-4,955555
			0,013920	-4,956852	0,013920	-4,955521
			0,014000	-4,956705	0,014000	-4,955488
			0,014080	-4,956558	0,014080	-4,955455
			0,014160	-4,956412	0,014160	-4,955422
			0,014240	-4,956265	0,014240	-4,955389
			0,014320	-4,956118	0,014320	-4,955355
			0,014400	-4,955971	0,014400	-4,955322
			0,014480	-4,955824	0,014480	-4,955289
			0,014560	-4,955677	0,014560	-4,955256
			0,014640	-4,955531	0,014640	-4,955223
			0,014720	-4,955384	0,014720	-4,955191
			0,014800	-4,955237	0,014800	-4,955158
			0,014880	-4,955091	0,014880	-4,955125
			0,014960	-4,954945	0,014960	-4,955092
			0,015040	-4,954799	0,015040	-4,955059
			0,015120	-4,954653	0,015120	-4,955027
			0,015200	-4,954507	0,015200	-4,954994
			0,015280	-4,954361	0,015280	-4,954961
			0,015360	-4,954216	0,015360	-4,954929
			0,015440	-4,954071	0,015440	-4,954896
			0,015520	-4,953926	0,015520	-4,954864
			0,015600	-4,953782	0,015600	-4,954831
			0,015680	-4,953637	0,015680	-4,954799
			0,015760	-4,953494	0,015760	-4,954766
			0,015840	-4,953350	0,015840	-4,954734
			0,015920	-4,953207	0,015920	-4,954702
			0,016000	-4,953064	0,016000	-4,954669
			0,016080	-4,952922	0,016080	-4,954637
			0,016160	-4,952780	0,016160	-4,954605
			0,016240	-4,952639	0,016240	-4,954572
			0,016320	-4,952498	0,016320	-4,954540
			0,016400	-4,952357	0,016400	-4,954508
			0,016480	-4,952217	0,016480	-4,954476
			0,016560	-4,952078	0,016560	-4,954444
			0,016640	-4,951939	0,016640	-4,954411
			0,016720	-4,951801	0,016720	-4,954379
			0,016800	-4,951663	0,016800	-4,954347
			0,016880	-4,951526	0,016880	-4,954315
			0,016960	-4,951389	0,016960	-4,954283
			0,017040	-4,951253	0,017040	-4,954251
			0,017120	-4,951118	0,017120	-4,954219
			0,017200	-4,950983	0,017200	-4,954187
			0,017280	-4,950849	0,017280	-4,954155
			0,017360	-4,950716	0,017360	-4,954122
			0,017440	-4,950583	0,017440	-4,954090
			0,017520	-4,950451	0,017520	-4,954058
			0,017600	-4,950320	0,017600	-4,954026
			0,017680	-4,950190	0,017680	-4,953994
			0,017760	-4,950060	0,017760	-4,953962
			0,017840	-4,949931	0,017840	-4,953930
			0,017920	-4,949803	0,017920	-4,953898
			0,018000	-4,949676	0,018000	-4,953866
			0,018080	-4,949549	0,018080	-4,953834
			0,018160	-4,949424	0,018160	-4,953802
			0,018240	-4,949299	0,018240	-4,953770
			0,018320	-4,949175	0,018320	-4,953738
			0,018400	-4,949052	0,018400	-4,953706
			0,018480	-4,948930	0,018480	-4,953674
			0,018560	-4,948808	0,018560	-4,953642
			0,018640	-4,948688	0,018640	-4,953610
			0,018720	-4,948569	0,018720	-4,953578
			0,018800	-4,948450	0,018800	-4,953546
			0,018880	-4,948333	0,018880	-4,953514
			0,018960	-4,948216	0,018960	-4,953482
			0,019040	-4,948100	0,019040	-4,953450
			0,019120	-4,947986	0,019120	-4,953418
			0,019200	-4,947872	0,019200	-4,953386
			0,019280	-4,947759	0,019280	-4,953354
			0,019360	-4,947648	0,019360	-4,953322
			0,019440	-4,947537	0,019440	-4,953290
			0,019520	-4,947428	0,019520	-4,953257
			0,019600	-4,947319	0,019600	-4,953225
			0,019680	-4,947212	0,019680	-4,953193
			0,019760	-4,947105	0,019760	-4,953161
			0,019840	-4,947000	0,019840	-4,953129
			0,019920	-4,946895	0,019920	-4,953096
			0,020000	-4,946792	0,020000	-4,953064
			0,020080	-4,946690	0,020080	-4,953032
			0,020160	-4,946589	0,020160	-4,953000
			0,020240	-4,946489	0,020240	-4,952967
			0,020320	-4,946390	0,020320	-4,952935
			0,020400	-4,946293	0,020400	-4,952903
			0,020480	-4,946196	0,020480	-4,952870
			0,020560	-4,946101	0,020560	-4,952838
			0,020640	-4,946006	0,020640	-4,952806
			0,020720	-4,945913	0,020720	-4,952773
			0,020800	-4,945821	0,020800	-4,952741
			0,020880	-4,945730	0,020880	-4,952708
			0,020960	-4,945641	0,020960	-4,952676
			0,021040	-4,945552	0,021040	-4,952643
			0,021120	-4,945465	0,021120	-4,952610
			0,021200	-4,945379	0,021200	-4,952578
			0,021280	-4,945294	0,021280	-4,952545
			0,021360	-4,945210	0,021360	-4,952512
			0,021440	-4,945128	0,021440	-4,952480
			0,021520	-4,945046	0,021520	-4,952447
			0,021600	-4,944966	0,021600	-4,952414
			0,021680	-4,944887	0,021680	-4,952381
			0,021760	-4,944809	0,021760	-4,952348
			0,021840	-4,944733	0,021840	-4,952315
			0,021920	-4,944657	0,021920	-4,952283
			0,022000	-4,944583	0,022000	-4,952250
			0,022080	-4,944510	0,022080	-4,952217
			0,022160	-4,944438	0,022160	-4,952183
			0,022240	-4,944368	0,022240	-4,952150
			0,022320	-4,944298	0,022320	-4,952117
			0,022400	-4,944230	0,022400	-4,952084
			0,022480	-4,944163	0,022480	-4,952051
			0,022560	-4,944098	0,022560	-4,952018
			0,022640	-4,944033	0,022640	-4,951984
			0,022720	-4,943970	0,022720	-4,951951
			0,022800	-4,943908	0,022800	-4,951917
			0,022880	-4,943847	0,022880	-4,951884
			0,022960	-4,943787	0,022960	-4,951850
			0,023040	-4,943729	0,023040	-4,951817
			0,023120	-4,943671	0,023120	-4,951783
			0,023200	-4,943615	0,023200	-4,951750
			0,023280	-4,943560	0,023280	-4,951716
			0,023360	-4,943507	0,023360	-4,951682
			0,023440	-4,943454	0,023440	-4,951648
			0,023520	-4,943403	0,023520	-4,951615
			0,023600	-4,943353	0,023600	-4,951581
			0,023680	-4,943304	0,023680	-4,951547
			0,023760	-4,943256	0,023760	-4,951513
			0,023840	-4,943210	0,023840	-4,951479
			0,023920	-4,943165	0,023920	-4,951444
			0,024000	-4,943120	0,024000	-4,951410
			0,024080	-4,943077	0,024080	-4,951376
			0,024160	-4,943035	0,024160	-4,951342
			0,024240	-4,942995	0,024240	-4,951307
			0,024320	-4,942955	0,024320	-4,951273
			0,024400	-4,942917	0,024400	-4,951239
			0,024480	-4,942879	0,024480	-4,951204
			0,024560	-4,942843	0,024560	-4,951169
			0,024640	-4,942808	0,024640	-4,951135
			0,024720	-4,942774	0,024720	-4,951100
			0,024800	-4,942741	0,024800	-4,951065
			0,024880	-4,942710	0,024880	-4,951030
			0,024960	-4,942679	0,024960	-4,950996
			0,025040	-4,942649	0,025040	-4,950961
			0,025120	-4,942621	0,025120	-4,950926
			0,025200	-4,942593	0,025200	-4,950891
			0,025280	-4,942567	0,025280	-4,950855
			0,025360	-4,942542	0,025360	-4,950820
			0,025440	-4,942518	0,025440	-4,950785
			0,025520	-4,942494	0,025520	-4,950750
			0,025600	-4,942472	0,025600	-4,950714
			0,025680	-4,942451	0,025680	-4,950679
			0,025760	-4,942431	0,025760	-4,950643
			0,025840	-4,942412	0,025840	-4,950607
			0,025920	-4,942393	0,025920	-4,950572
			0,026000	-4,942376	0,026000	-4,950536
			0,026080	-4,942360	0,026080	-4,950500
			0,026160	-4,942345	0,026160	-4,950464
			0,026240	-4,942330	0,026240	-4,950428
			0,026320	-4,942317	0,026320	-4,950392
			0,026400	-4,942304	0,026400	-4,950356
			0,026480	-4,942293	0,026480	-4,950320
			0,026560	-4,942282	0,026560	-4,950284
			0,026640	-4,942272	0,026640	-4,950247
			0,026720	-4,942263	0,026720	-4,950211
			0,026800	-4,942255	0,026800	-4,950174
			0,026880	-4,942248	0,026880	-4,950138
			0,026960	-4,942242	0,026960	-4,950101
			0,027040	-4,942236	0,027040	-4,950065
			0,027120	-4,942232	0,027120	-4,950028
			0,027200	-4,942228	0,027200	-4,949991
			0,027280	-4,942224	0,027280	-4,949954
			0,027360	-4,942222	0,027360	-4,949917
			0,027440	-4,942220	0,027440	-4,949880
			0,027520	-4,942220	0,027520	-4,949843
			0,027600	-4,942219	0,027600	-4,949805
			0,027680	-4,942220	0,027680	-4,949768
			0,027760	-4,942221	0,027760	-4,949731
			0,027840	-4,942223	0,027840	-4,949693
			0,027920	-4,942226	0,027920	-4,949656
			0,028000	-4,942229	0,028000	-4,949618
			0,028080	-4,942233	0,028080	-4,949580
			0,028160	-4,942238	0,028160	-4,949542
			0,028240	-4,942243	0,028240	-4,949504
			0,028320	-4,942249	0,028320	-4,949466
			0,028400	-4,942255	0,028400	-4,949428
			0,028480	-4,942262	0,028480	-4,949390
			0,028560	-4,942269	0,028560	-4,949352
			0,028640	-4,942277	0,028640	-4,949314
			0,028720	-4,942286	0,028720	-4,949275
			0,028800	-4,942295	0,028800	-4,949237
			0,028880	-4,942305	0,028880	-4,949198
			0,028960	-4,942315	0,028960	-4,949159
			0,029040	-4,942325	0,029040	-4,949121
			0,029120	-4,942336	0,029120	-4,949082
			0,029200	-4,942347	0,029200	-4,949043
			0,029280	-4,942359	0,029280	-4,949004
			0,029360	-4,942371	0,029360	-4,948965
			0,029440	-4,942384	0,029440	-4,948925
			0,029520	-4,942397	0,029520	-4,948886
			0,029600	-4,942410	0,029600	-4,948847
			0,029680	-4,942423	0,029680	-4,948807
			0,029760	-4,942437	0,029760	-4,948768
			0,029840	-4,942451	0,029840	-4,948728
			0,029920	-4,942466	0,029920	-4,948688
			0,030000	-4,942481	0,030000	-4,948648
			0,030080	-4,942495	0,030080	-4,948608
			0,030160	-4,942511	0,030160	-4,948568
			0,030240	-4,942526	0,030240	-4,948528
			0,030320	-4,942542	0,030320	-4,948488
			0,030400	-4,942557	0,030400	-4,948448
			0,030480	-4,942573	0,030480	-4,948407
			0,030560	-4,942589	0,030560	-4,948367
			0,030640	-4,942605	0,030640	-4,948326
			0,030720	-4,942621	0,030720	-4,948286
			0,030800	-4,942638	0,030800	-4,948245
			0,030880	-4,942654	0,030880	-4,948204
			0,030960	-4,942670	0,030960	-4,948163
			0,031040	-4,942687	0,031040	-4,948122
			0,031120	-4,942703	0,031120	-4,948081
			0,031200	-4,942720	0,031200	-4,948040
			0,031280	-4,942736	0,031280	-4,947998
			0,031360	-4,942753	0,031360	-4,947957
			0,031440	-4,942769	0,031440	-4,947915
			0,031520	-4,942785	0,031520	-4,947874
			0,031600	-4,942801	0,031600	-4,947832
			0,031680	-4,942817	0,031680	-4,947790
			0,031760	-4,942833	0,031760	-4,947748
			0,031840	-4,942849	0,031840	-4,947706
			0,031920	-4,942864	0,031920	-4,947664
			0,032000	-4,942880	0,032000	-4,947622
			0,032080	-4,942895	0,032080	-4,947579
			0,032160	-4,942910	0,032160	-4,947537
			0,032240	-4,942925	0,032240	-4,947494
			0,032320	-4,942939	0,032320	-4,947452
			0,032400	-4,942954	0,032400	-4,947409
			0,032480	-4,942967	0,032480	-4,947366
			0,032560	-4,942981	0,032560	-4,947323
			0,032640	-4,942994	0,032640	-4,947280
			0,032720	-4,943007	0,032720	-4,947237
			0,032800	-4,943020	0,032800	-4,947194
			0,032880	-4,943032	0,032880	-4,947151
			0,032960	-4,943044	0,032960	-4,947107
			0,033040	-4,943055	0,033040	-4,947064
			0,033120	-4,943066	0,033120	-4,947020
			0,033200	-4,943077	0,033200	-4,946976
			0,033280	-4,943087	0,033280	-4,946933
			0,033360	-4,943097	0,033360	-4,946889
			0,033440	-4,943106	0,033440	-4,946845
			0,033520	-4,943114	0,033520	-4,946801
			0,033600	-4,943123	0,033600	-4,946756
			0,033680	-4,943130	0,033680	-4,946712
			0,033760	-4,943137	0,033760	-4,946668
			0,033840	-4,943143	0,033840	-4,946623
			0,033920	-4,943149	0,033920	-4,946578
			0,034000	-4,943154	0,034000	-4,946534
			0,034080	-4,943159	0,034080	-4,946489
			0,034160	-4,943163	0,034160	-4,946444
			0,034240	-4,943166	0,034240	-4,946399
			0,034320	-4,943169	0,034320	-4,946354
			0,034400	-4,943171	0,034400	-4,946308
			0,034480	-4,943172	0,034480	-4,946263
			0,034560	-4,943172	0,034560	-4,946217
			0,034640	-4,943172	0,034640	-4,946172
			0,034720	-4,943171	0,034720	-4,946126
			0,034800	-4,943169	0,034800	-4,946080
			0,034880	-4,943167	0,034880	-4,946035
			0,034960	-4,943164	0,034960	-4,945989
			0,035040	-4,943160	0,035040	-4,945942
			0,035120	-4,943155	0,035120	-4,945896
			0,035200	-4,943149	0,035200	-4,945850
			0,035280	-4,943142	0,035280	-4,945804
			0,035360	-4,943135	0,035360	-4,945757
			0,035440	-4,943126	0,035440	-4,945710
			0,035520	-4,943117	0,035520	-4,945664
			0,035600	-4,943107	0,035600	-4,945617
			0,035680	-4,943096	0,035680	-4,945570
			0,035760	-4,943084	0,035760	-4,945523
			0,035840	-4,943071	0,035840	-4,945476
			0,035920	-4,943057	0,035920	-4,945429
			0,036000	-4,943042	0,036000	-4,945381
			0,036080	-4,943026	0,036080	-4,945334
			0,036160	-4,943009	0,036160	-4,945286
			0,036240	-4,942991	0,036240	-4,945238
			0,036320	-4,942972	0,036320	-4,945191
			0,036400	-4,942953	0,036400	-4,945143
			0,036480	-4,942932	0,036480	-4,945095
			0,036560	-4,942910	0,036560	-4,945047
			0,036640	-4,942886	0,036640	-4,944999
			0,036720	-4,942862	0,036720	-4,944950
			0,036800	-4,942837	0,036800	-4,944902
			0,036880	-4,942811	0,036880	-4,944853
			0,036960	-4,942783	0,036960	-4,944805
			0,037040	-4,942755	0,037040	-4,944756
			0,037120	-4,942725	0,037120	-4,944707
			0,037200	-4,942694	0,037200	-4,944658
			0,037280	-4,942662	0,037280	-4,944609
			0,037360	-4,942629	0,037360	-4,944560
			0,037440	-4,942595	0,037440	-4,944511
			0,037520	-4,942560	0,037520	-4,944461
			0,037600	-4,942523	0,037600	-4,944412
			0,037680	-4,942485	0,037680	-4,944362
			0,037760	-4,942446	0,037760	-4,944313
			0,037840	-4,942406	0,037840	-4,944263
			0,037920	-4,942365	0,037920	-4,944213
			0,038000	-4,942322	0,038000	-4,944163
			0,038080	-4,942278	0,038080	-4,944113
			0,038160	-4,942233	0,038160	-4,944063
			0,038240	-4,942187	0,038240	-4,944013
			0,038320	-4,942139	0,038320	-4,943962
			0,038400	-4,942090	0,038400	-4,943912
			0,038480	-4,942040	0,038480	-4,943861
			0,038560	-4,941989	0,038560	-4,943810
			0,038640	-4,941936	0,038640	-4,943760
			0,038720	-4,941882	0,038720	-4,943709
			0,038800	-4,941827	0,038800	-4,943658
			0,038880	-4,941771	0,038880	-4,943607
			0,038960	-4,941713	0,038960	-4,943555
			0,039040	-4,941654	0,039040	-4,943504
			0,039120	-4,941593	0,039120	-4,943453
			0,039200	-4,941532	0,039200	-4,943401
			0,039280	-4,941469	0,039280	-4,943349
			0,039360	-4,941405	0,039360	-4,943298
			0,039440	-4,941339	0,039440	-4,943246
			0,039520	-4,941272	0,039520	-4,943194
			0,039600	-4,941204	0,039600	-4,943142
			0,039680	-4,941134	0,039680	-4,943090
			0,039760	-4,941064	0,039760	-4,943037
			0,039840	-4,940991	0,039840	-4,942985
			0,039920	-4,940918	0,039920	-4,942932
			0,040000	-4,940843	0,040000	-4,942880
			0,040080	-4,940767	0,040080	-4,942827
			0,040160	-4,940689	0,040160	-4,942774
			0,040240	-4,940611	0,040240	-4,942722
			0,040320	-4,940530	0,040320	-4,942669
			0,040400	-4,940449	0,040400	-4,942616
			0,040480	-4,940366	0,040480	-4,942562
			0,040560	-4,940282	0,040560	-4,942509
			0,040640	-4,940197	0,040640	-4,942456
			0,040720	-4,940110	0,040720	-4,942402
			0,040800	-4,940022	0,040800	-4,942349
			0,040880	-4,939932	0,040880	-4,942295
			0,040960	-4,939842	0,040960	-4,942241
			0,041040	-4,939750	0,041040	-4,942187
			0,041120	-4,939656	0,041120	-4,942133
			0,041200	-4,939562	0,041200	-4,942079
			0,041280	-4,939466	0,041280	-4,942025
			0,041360	-4,939368	0,041360	-4,941971
			0,041440	-4,939270	0,041440	-4,941916
			0,041520	-4,939170	0,041520	-4,941862
			0,041600	-4,939069	0,041600	-4,941807
			0,041680	-4,938966	0,041680	-4,941753
			0,041760	-4,938862	0,041760	-4,941698
			0,041840	-4,938757	0,041840	-4,941643
			0,041920	-4,938651	0,041920	-4,941588
			0,042000	-4,938543	0,042000	-4,941533
			0,042080	-4,938435	0,042080	-4,941478
			0,042160	-4,938324	0,042160	-4,941423
			0,042240	-4,938213	0,042240	-4,941367
			0,042320	-4,938100	0,042320	-4,941312
			0,042400	-4,937987	0,042400	-4,941256
			0,042480	-4,937871	0,042480	-4,941201
			0,042560	-4,937755	0,042560	-4,941145
			0,042640	-4,937638	0,042640	-4,941089
			0,042720	-4,937519	0,042720	-4,941033
			0,042800	-4,937399	0,042800	-4,940977
			0,042880	-4,937278	0,042880	-4,940921
			0,042960	-4,937155	0,042960	-4,940865
			0,043040	-4,937032	0,043040	-4,940809
			0,043120	-4,936907	0,043120	-4,940752
			0,043200	-4,936781	0,043200	-4,940696
			0,043280	-4,936654	0,043280	-4,940639
			0,043360	-4,936526	0,043360	-4,940583
			0,043440	-4,936397	0,043440	-4,940526
			0,043520	-4,936267	0,043520	-4,940469
			0,043600	-4,936135	0,043600	-4,940412
			0,043680	-4,936003	0,043680	-4,940355
			0,043760	-4,935869	0,043760	-4,940298
			0,043840	-4,935734	0,043840	-4,940241
			0,043920	-4,935599	0,043920	-4,940183
			0,044000	-4,935462	0,044000	-4,940126
			0,044080	-4,935324	0,044080	-4,940069
			0,044160	-4,935185	0,044160	-4,940011
			0,044240	-4,935045	0,044240	-4,939953
			0,044320	-4,934904	0,044320	-4,939896
			0,044400	-4,934762	0,044400	-4,939838
			0,044480	-4,934619	0,044480	-4,939780
			0,044560	-4,934475	0,044560	-4,939722
			0,044640	-4,934330	0,044640	-4,939664
			0,044720	-4,934185	0,044720	-4,939606
			0,044800	-4,934038	0,044800	-4,939547
			0,044880	-4,933891	0,044880	-4,939489
			0,044960	-4,933742	0,044960	-4,939431
			0,045040	-4,933593	0,045040	-4,939372
			0,045120	-4,933442	0,045120	-4,939314
			0,045200	-4,933291	0,045200	-4,939255
			0,045280	-4,933140	0,045280	-4,939196
			0,045360	-4,932987	0,045360	-4,939137
			0,045440	-4,932833	0,045440	-4,939078
			0,045520	-4,932679	0,045520	-4,939019
			0,045600	-4,932524	0,045600	-4,938960
			0,045680	-4,932368	0,045680	-4,938901
			0,045760	-4,932212	0,045760	-4,938842
			0,045840	-4,932054	0,045840	-4,938783
			0,045920	-4,931896	0,045920	-4,938723
			0,046000	-4,931738	0,046000	-4,938664
			0,046080	-4,931578	0,046080	-4,938604
			0,046160	-4,931419	0,046160	-4,938544
			0,046240	-4,931258	0,046240	-4,938485
			0,046320	-4,931097	0,046320	-4,938425
			0,046400	-4,930935	0,046400	-4,938365
			0,046480	-4,930773	0,046480	-4,938305
			0,046560	-4,930610	0,046560	-4,938245
			0,046640	-4,930446	0,046640	-4,938185
			0,046720	-4,930282	0,046720	-4,938125
			0,046800	-4,930118	0,046800	-4,938065
			0,046880	-4,929953	0,046880	-4,938004
			0,046960	-4,929787	0,046960	-4,937944
			0,047040	-4,929621	0,047040	-4,937883
			0,047120	-4,929455	0,047120	-4,937823
			0,047200	-4,929288	0,047200	-4,937762
			0,047280	-4,929121	0,047280	-4,937702
			0,047360	-4,928954	0,047360	-4,937641
			0,047440	-4,928786	0,047440	-4,937580
			0,047520	-4,928618	0,047520	-4,937519
			0,047600	-4,928449	0,047600	-4,937458
			0,047680	-4,928281	0,047680	-4,937397
			0,047760	-4,928112	0,047760	-4,937336
			0,047840	-4,927942	0,047840	-4,937275
			0,047920	-4,927773	0,047920	-4,937214
			0,048000	-4,927603	0,048000	-4,937152
			0,048080	-4,927434	0,048080	-4,937091
			0,048160	-4,927264	0,048160	-4,937029
			0,048240	-4,927094	0,048240	-4,936968
			0,048320	-4,926923	0,048320	-4,936906
			0,048400	-4,926753	0,048400	-4,936845
			0,048480	-4,926583	0,048480	-4,936783
			0,048560	-4,926412	0,048560	-4,936721
			0,048640	-4,926242	0,048640	-4,936659
			0,048720	-4,926071	0,048720	-4,936598
			0,048800	-4,925901	0,048800	-4,936536
			0,048880	-4,925731	0,048880	-4,936474
			0,048960	-4,925560	0,048960	-4,936412
			0,049040	-4,925390	0,049040	-4,936349
			0,049120	-4,925220	0,049120	-4,936287
			0,049200	-4,925050	0,049200	-4,936225
			0,049280	-4,924880	0,049280	-4,936163
			0,049360	-4,924710	0,049360	-4,936100
			0,049440	-4,924541	0,049440	-4,936038
			0,049520	-4,924372	0,049520	-4,935976
			0,049600	-4,924203	0,049600	-4,935913
			0,049680	-4,924034	0,049680	-4,935850
			0,049760	-4,923866	0,049760	-4,935788
			0,049840	-4,923698	0,049840	-4,935725
			0,049920	-4,923530	0,049920	-4,935662
			0,050000	-4,923362	0,050000	-4,935600
			0,050080	-4,923195	0,050080	-4,935537
			0,050160	-4,923029	0,050160	-4,935474
			0,050240	-4,922863	0,050240	-4,935411
			0,050320	-4,922697	0,050320	-4,935348
			0,050400	-4,922532	0,050400	-4,935285
			0,050480	-4,922367	0,050480	-4,935222
			0,050560	-4,922203	0,050560	-4,935159
			0,050640	-4,922039	0,050640	-4,935096
			0,050720	-4,921876	0,050720	-4,935032
			0,050800	-4,921713	0,050800	-4,934969
			0,050880	-4,921552	0,050880	-4,934906
			0,050960	-4,921390	0,050960	-4,934843
			0,051040	-4,921230	0,051040	-4,934779
			0,051120	-4,921070	0,051120	-4,934716
			0,051200	-4,920911	0,051200	-4,934652
			0,051280	-4,920752	0,051280	-4,934589
			0,051360	-4,920595	0,051360	-4,934525
			0,051440	-4,920438	0,051440	-4,934462
			0,051520	-4,920282	0,051520	-4,934398
			0,051600	-4,920126	0,051600	-4,934334
			0,051680	-4,919972	0,051680	-4,934271
			0,051760	-4,919819	0,051760	-4,934207
			0,051840	-4,919666	0,051840	-4,934143
			0,051920	-4,919514	0,051920	-4,934079
			0,052000	-4,919364	0,052000	-4,934015
			0,052080	-4,919214	0,052080	-4,933952
			0,052160	-4,919065	0,052160	-4,933888
			0,052240	-4,918917	0,052240	-4,933824
			0,052320	-4,918770	0,052320	-4,933760
			0,052400	-4,918625	0,052400	-4,933696
			0,052480	-4,918480	0,052480	-4,933632
			0,052560	-4,918337	0,052560	-4,933568
			0,052640	-4,918194	0,052640	-4,933504
			0,052720	-4,918053	0,052720	-4,933439
			0,052800	-4,917913	0,052800	-4,933375
			0,052880	-4,917774	0,052880	-4,933311
			0,052960	-4,917637	0,052960	-4,933247
			0,053040	-4,917500	0,053040	-4,933183
			0,053120	-4,917365	0,053120	-4,933118
			0,053200	-4,917231	0,053200	-4,933054
			0,053280	-4,917099	0,053280	-4,932990
			0,053360	-4,916968	0,053360	-4,932926
			0,053440	-4,916838	0,053440	-4,932861
			0,053520	-4,916709	0,053520	-4,932797
			0,053600	-4,916582	0,053600	-4,932733
			0,053680	-4,916456	0,053680	-4,932668
			0,053760	-4,916332	0,053760	-4,932604
			0,053840	-4,916209	0,053840	-4,932539
			0,053920	-4,916088	0,053920	-4,932475
			0,054000	-4,915968	0,054000	-4,932410
			0,054080	-4,915850	0,054080	-4,932346
			0,054160	-4,915733	0,054160	-4,932282
			0,054240	-4,915618	0,054240	-4,932217
			0,054320	-4,915504	0,054320	-4,932153
			0,054400	-4,915392	0,054400	-4,932088
			0,054480	-4,915282	0,054480	-4,932024
			0,054560	-4,915173	0,054560	-4,931959
			0,054640	-4,915066	0,054640	-4,931894
			0,054720	-4,914960	0,054720	-4,931830
			0,054800	-4,914857	0,054800	-4,931765
			0,054880	-4,914755	0,054880	-4,931701
			0,054960	-4,914654	0,054960	-4,931636
			0,055040	-4,914556	0,055040	-4,931572
			0,055120	-4,914459	0,055120	-4,931507
			0,055200	-4,914364	0,055200	-4,931443
			0,055280	-4,914271	0,055280	-4,931378
			0,055360	-4,914179	0,055360	-4,931314
			0,055440	-4,914090	0,055440	-4,931249
			0,055520	-4,914002	0,055520	-4,931184
			0,055600	-4,913916	0,055600	-4,931120
			0,055680	-4,913832	0,055680	-4,931055
			0,055760	-4,913750	0,055760	-4,930991
			0,055840	-4,913670	0,055840	-4,930926
			0,055920	-4,913592	0,055920	-4,930862
			0,056000	-4,913516	0,056000	-4,930797
			0,056080	-4,913441	0,056080	-4,930733
			0,056160	-4,913369	0,056160	-4,930668
			0,056240	-4,913299	0,056240	-4,930604
			0,056320	-4,913231	0,056320	-4,930539
			0,056400	-4,913164	0,056400	-4,930475
			0,056480	-4,913100	0,056480	-4,930410
			0,056560	-4,913038	0,056560	-4,930346
			0,056640	-4,912978	0,056640	-4,930281
			0,056720	-4,912920	0,056720	-4,930217
			0,056800	-4,912865	0,056800	-4,930153
			0,056880	-4,912811	0,056880	-4,930088
			0,056960	-4,912759	0,056960	-4,930024
			0,057040	-4,912710	0,057040	-4,929960
			0,057120	-4,912663	0,057120	-4,929895
			0,057200	-4,912618	0,057200	-4,929831
			0,057280	-4,912575	0,057280	-4,929767
			0,057360	-4,912534	0,057360	-4,929703
			0,057440	-4,912496	0,057440	-4,929638
			0,057520	-4,912459	0,057520	-4,929574
			0,057600	-4,912425	0,057600	-4,929510
			0,057680	-4,912394	0,057680	-4,929446
			0,057760	-4,912364	0,057760	-4,929382
			0,057840	-4,912337	0,057840	-4,929318
			0,057920	-4,912312	0,057920	-4,929254
			0,058000	-4,912289	0,058000	-4,929190
			0,058080	-4,912269	0,058080	-4,929126
			0,058160	-4,912251	0,058160	-4,929062
			0,058240	-4,912235	0,058240	-4,928998
			0,058320	-4,912221	0,058320	-4,928934
			0,058400	-4,912210	0,058400	-4,928870
			0,058480	-4,912202	0,058480	-4,928806
			0,058560	-4,912195	0,058560	-4,928743
			0,058640	-4,912191	0,058640	-4,928679
			0,058720	-4,912189	0,058720	-4,928615
			0,058800	-4,912190	0,058800	-4,928552
			0,058880	-4,912193	0,058880	-4,928488
			0,058960	-4,912198	0,058960	-4,928425
			0,059040	-4,912206	0,059040	-4,928361
			0,059120	-4,912216	0,059120	-4,928298
			0,059200	-4,912229	0,059200	-4,928234
			0,059280	-4,912244	0,059280	-4,928171
			0,059360	-4,912261	0,059360	-4,928108
			0,059440	-4,912281	0,059440	-4,928044
			0,059520	-4,912304	0,059520	-4,927981
			0,059600	-4,912328	0,059600	-4,927918
			0,059680	-4,912355	0,059680	-4,927855
			0,059760	-4,912385	0,059760	-4,927792
			0,059840	-4,912417	0,059840	-4,927729
			0,059920	-4,912451	0,059920	-4,927666
			0,060000	-4,912488	0,060000	-4,927603
			0,060080	-4,912528	0,060080	-4,927541
			0,060160	-4,912569	0,060160	-4,927478
			0,060240	-4,912614	0,060240	-4,927415
			0,060320	-4,912660	0,060320	-4,927353
			0,060400	-4,912709	0,060400	-4,927290
			0,060480	-4,912761	0,060480	-4,927228
			0,060560	-4,912815	0,060560	-4,927165
			0,060640	-4,912872	0,060640	-4,927103
			0,060720	-4,912931	0,060720	-4,927041
			0,060800	-4,912992	0,060800	-4,926979
			0,060880	-4,913056	0,060880	-4,926917
			0,060960	-4,913122	0,060960	-4,926854
			0,061040	-4,913191	0,061040	-4,926793
			0,061120	-4,913262	0,061120	-4,926731
			0,061200	-4,913336	0,061200	-4,926669
			0,061280	-4,913412	0,061280	-4,926607
			0,061360	-4,913490	0,061360	-4,926546
			0,061440	-4,913571	0,061440	-4,926484
			0,061520	-4,913655	0,061520	-4,926422
			0,061600	-4,913741	0,061600	-4,926361
			0,061680	-4,913829	0,061680	-4,926300
			0,061760	-4,913920	0,061760	-4,926239
			0,061840	-4,914013	0,061840	-4,926177
			0,061920	-4,914108	0,061920	-4,926116
			0,062000	-4,914206	0,062000	-4,926055
			0,062080	-4,914307	0,062080	-4,925995
			0,062160	-4,914410	0,062160	-4,925934
			0,062240	-4,914515	0,062240	-4,925873
			0,062320	-4,914622	0,062320	-4,925813
			0,062400	-4,914732	0,062400	-4,925752
			0,062480	-4,914845	0,062480	-4,925692
			0,062560	-4,914959	0,062560	-4,925631
			0,062640	-4,915076	0,062640	-4,925571
			0,062720	-4,915196	0,062720	-4,925511
			0,062800	-4,915317	0,062800	-4,925451
			0,062880	-4,915442	0,062880	-4,925391
			0,062960	-4,915568	0,062960	-4,925331
			0,063040	-4,915697	0,063040	-4,925272
			0,063120	-4,915828	0,063120	-4,925212
			0,063200	-4,915961	0,063200	-4,925153
			0,063280	-4,916097	0,063280	-4,925093
			0,063360	-4,916235	0,063360	-4,925034
			0,063440	-4,916375	0,063440	-4,924975
			0,063520	-4,916517	0,063520	-4,924916
			0,063600	-4,916662	0,063600	-4,924857
			0,063680	-4,916809	0,063680	-4,924798
			0,063760	-4,916958	0,063760	-4,924740
			0,063840	-4,917110	0,063840	-4,924681
			0,063920	-4,917263	0,063920	-4,924623
			0,064000	-4,917419	0,064000	-4,924564
			0,064080	-4,917577	0,064080	-4,924506
			0,064160	-4,917737	0,064160	-4,924448
			0,064240	-4,917899	0,064240	-4,924390
			0,064320	-4,918064	0,064320	-4,924332
			0,064400	-4,918230	0,064400	-4,924275
			0,064480	-4,918399	0,064480	-4,924217
			0,064560	-4,918570	0,064560	-4,924160
			0,064640	-4,918743	0,064640	-4,924103
			0,064720	-4,918917	0,064720	-4,924045
			0,064800	-4,919094	0,064800	-4,923988
			0,064880	-4,919273	0,064880	-4,923931
			0,064960	-4,919454	0,064960	-4,923875
			0,065040	-4,919637	0,065040	-4,923818
			0,065120	-4,919822	0,065120	-4,923762
			0,065200	-4,920009	0,065200	-4,923705
			0,065280	-4,920198	0,065280	-4,923649
			0,065360	-4,920389	0,065360	-4,923593
			0,065440	-4,920582	0,065440	-4,923537
			0,065520	-4,920776	0,065520	-4,923482
			0,065600	-4,920973	0,065600	-4,923426
			0,065680	-4,921171	0,065680	-4,923371
			0,065760	-4,921372	0,065760	-4,923315
			0,065840	-4,921574	0,065840	-4,923260
			0,065920	-4,921777	0,065920	-4,923205
			0,066000	-4,921983	0,066000	-4,923150
			0,066080	-4,922191	0,066080	-4,923096
			0,066160	-4,922400	0,066160	-4,923041
			0,066240	-4,922611	0,066240	-4,922987
			0,066320	-4,922823	0,066320	-4,922933
			0,066400	-4,923038	0,066400	-4,922879
			0,066480	-4,923254	0,066480	-4,922825
			0,066560	-4,923471	0,066560	-4,922771
			0,066640	-4,923691	0,066640	-4,922718
			0,066720	-4,923911	0,066720	-4,922664
			0,066800	-4,924134	0,066800	-4,922611
			0,066880	-4,924358	0,066880	-4,922558
			0,066960	-4,924584	0,066960	-4,922505
			0,067040	-4,924811	0,067040	-4,922453
			0,067120	-4,925039	0,067120	-4,922400
			0,067200	-4,925269	0,067200	-4,922348
			0,067280	-4,925501	0,067280	-4,922296
			0,067360	-4,925734	0,067360	-4,922244
			0,067440	-4,925968	0,067440	-4,922192
			0,067520	-4,926204	0,067520	-4,922140
			0,067600	-4,926441	0,067600	-4,922089
			0,067680	-4,926680	0,067680	-4,922038
			0,067760	-4,926919	0,067760	-4,921987
			0,067840	-4,927160	0,067840	-4,921936
			0,067920	-4,927403	0,067920	-4,921885
			0,068000	-4,927646	0,068000	-4,921835
			0,068080	-4,927891	0,068080	-4,921785
			0,068160	-4,928137	0,068160	-4,921735
			0,068240	-4,928384	0,068240	-4,921685
			0,068320	-4,928633	0,068320	-4,921635
			0,068400	-4,928882	0,068400	-4,921586
			0,068480	-4,929133	0,068480	-4,921537
			0,068560	-4,929384	0,068560	-4,921487
			0,068640	-4,929637	0,068640	-4,921439
			0,068720	-4,929891	0,068720	-4,921390
			0,068800	-4,930145	0,068800	-4,921342
			0,068880	-4,930401	0,068880	-4,921293
			0,068960	-4,930658	0,068960	-4,921245
			0,069040	-4,930915	0,069040	-4,921198
			0,069120	-4,931173	0,069120	-4,921150
			0,069200	-4,931433	0,069200	-4,921103
			0,069280	-4,931693	0,069280	-4,921056
			0,069360	-4,931954	0,069360	-4,921009
			0,069440	-4,932215	0,069440	-4,920962
			0,069520	-4,932478	0,069520	-4,920915
			0,069600	-4,932741	0,069600	-4,920869
			0,069680	-4,933005	0,069680	-4,920823
			0,069760	-4,933270	0,069760	-4,920777
			0,069840	-4,933535	0,069840	-4,920732
			0,069920	-4,933801	0,069920	-4,920687
			0,070000	-4,934067	0,070000	-4,920641
			0,070080	-4,934334	0,070080	-4,920597
			0,070160	-4,934602	0,070160	-4,920552
			0,070240	-4,934870	0,070240	-4,920508
			0,070320	-4,935138	0,070320	-4,920463
			0,070400	-4,935408	0,070400	-4,920419
			0,070480	-4,935677	0,070480	-4,920376
			0,070560	-4,935947	0,070560	-4,920332
			0,070640	-4,936217	0,070640	-4,920289
			0,070720	-4,936488	0,070720	-4,920246
			0,070800	-4,936759	0,070800	-4,920204
			0,070880	-4,937030	0,070880	-4,920161
			0,070960	-4,937302	0,070960	-4,920119
			0,071040	-4,937573	0,071040	-4,920077
			0,071120	-4,937845	0,071120	-4,920035
			0,071200	-4,938117	0,071200	-4,919994
			0,071280	-4,938390	0,071280	-4,919953
			0,071360	-4,938662	0,071360	-4,919912
			0,071440	-4,938935	0,071440	-4,919871
			0,071520	-4,939207	0,071520	-4,919831
			0,071600	-4,939480	0,071600	-4,919791
			0,071680	-4,939753	0,071680	-4,919751
			0,071760	-4,940025	0,071760	-4,919711
			0,071840	-4,940298	0,071840	-4,919672
			0,071920	-4,940571	0,071920	-4,919633
			0,072000	-4,940843	0,072000	-4,919594
			0,072080	-4,941115	0,072080	-4,919556
			0,072160	-4,941388	0,072160	-4,919518
			0,072240	-4,941660	0,072240	-4,919480
			0,072320	-4,941931	0,072320	-4,919442
			0,072400	-4,942203	0,072400	-4,919405
			0,072480	-4,942474	0,072480	-4,919368
			0,072560	-4,942745	0,072560	-4,919331
			0,072640	-4,943016	0,072640	-4,919295
			0,072720	-4,943287	0,072720	-4,919258
			0,072800	-4,943557	0,072800	-4,919222
			0,072880	-4,943826	0,072880	-4,919187
			0,072960	-4,944095	0,072960	-4,919152
			0,073040	-4,944364	0,073040	-4,919117
			0,073120	-4,944633	0,073120	-4,919082
			0,073200	-4,944900	0,073200	-4,919047
			0,073280	-4,945168	0,073280	-4,919013
			0,073360	-4,945434	0,073360	-4,918979
			0,073440	-4,945700	0,073440	-4,918946
			0,073520	-4,945966	0,073520	-4,918913
			0,073600	-4,946231	0,073600	-4,918880
			0,073680	-4,946495	0,073680	-4,918847
			0,073760	-4,946758	0,073760	-4,918815
			0,073840	-4,947021	0,073840	-4,918783
			0,073920	-4,947283	0,073920	-4,918751
			0,074000	-4,947544	0,074000	-4,918720
			0,074080	-4,947805	0,074080	-4,918689
			0,074160	-4,948064	0,074160	-4,918659
			0,074240	-4,948323	0,074240	-4,918628
			0,074320	-4,948581	0,074320	-4,918598
			0,074400	-4,948838	0,074400	-4,918568
			0,074480	-4,949094	0,074480	-4,918539
			0,074560	-4,949349	0,074560	-4,918510
			0,074640	-4,949603	0,074640	-4,918481
			0,074720	-4,949856	0,074720	-4,918453
			0,074800	-4,950109	0,074800	-4,918425
			0,074880	-4,950360	0,074880	-4,918397
			0,074960	-4,950610	0,074960	-4,918370
			0,075040	-4,950858	0,075040	-4,918343
			0,075120	-4,951106	0,075120	-4,918316
			0,075200	-4,951353	0,075200	-4,918290
			0,075280	-4,951598	0,075280	-4,918264
			0,075360	-4,951842	0,075360	-4,918238
			0,075440	-4,952085	0,075440	-4,918213
			0,075520	-4,952327	0,075520	-4,918188
			0,075600	-4,952568	0,075600	-4,918164
			0,075680	-4,952807	0,075680	-4,918140
			0,075760	-4,953045	0,075760	-4,918116
			0,075840	-4,953281	0,075840	-4,918092
			0,075920	-4,953517	0,075920	-4,918069
			0,076000	-4,953750	0,076000	-4,918046
			0,076080	-4,953983	0,076080	-4,918024
			0,076160	-4,954214	0,076160	-4,918002
			0,076240	-4,954443	0,076240	-4,917980
			0,076320	-4,954671	0,076320	-4,917959
			0,076400	-4,954898	0,076400	-4,917938
			0,076480	-4,955123	0,076480	-4,917918
			0,076560	-4,955347	0,076560	-4,917898
			0,076640	-4,955568	0,076640	-4,917878
			0,076720	-4,955789	0,076720	-4,917859
			0,076800	-4,956008	0,076800	-4,917840
			0,076880	-4,956225	0,076880	-4,917821
			0,076960	-4,956440	0,076960	-4,917803
			0,077040	-4,956654	0,077040	-4,917785
			0,077120	-4,956867	0,077120	-4,917768
			0,077200	-4,957077	0,077200	-4,917751
			0,077280	-4,957286	0,077280	-4,917734
			0,077360	-4,957493	0,077360	-4,917718
			0,077440	-4,957698	0,077440	-4,917702
			0,077520	-4,957902	0,077520	-4,917686
			0,077600	-4,958104	0,077600	-4,917671
			0,077680	-4,958304	0,077680	-4,917657
			0,077760	-4,958502	0,077760	-4,917643
			0,077840	-4,958698	0,077840	-4,917629
			0,077920	-4,958893	0,077920	-4,917615
			0,078000	-4,959085	0,078000	-4,917602
			0,078080	-4,959276	0,078080	-4,917590
			0,078160	-4,959465	0,078160	-4,917578
			0,078240	-4,959652	0,078240	-4,917566
			0,078320	-4,959837	0,078320	-4,917555
			0,078400	-4,960020	0,078400	-4,917544
			0,078480	-4,960201	0,078480	-4,917533
			0,078560	-4,960380	0,078560	-4,917523
			0,078640	-4,960557	0,078640	-4,917514
			0,078720	-4,960732	0,078720	-4,917505
			0,078800	-4,960905	0,078800	-4,917496
			0,078880	-4,961076	0,078880	-4,917488
			0,078960	-4,961245	0,078960	-4,917480
			0,079040	-4,961412	0,079040	-4,917473
			0,079120	-4,961576	0,079120	-4,917466
			0,079200	-4,961739	0,079200	-4,917459
			0,079280	-4,961900	0,079280	-4,917453
			0,079360	-4,962058	0,079360	-4,917447
			0,079440	-4,962215	0,079440	-4,917442
			0,079520	-4,962369	0,079520	-4,917438
			0,079600	-4,962521	0,079600	-4,917433
			0,079680	-4,962671	0,079680	-4,917430
			0,079760	-4,962818	0,079760	-4,917426
			0,079840	-4,962964	0,079840	-4,917423
			0,079920	-4,963107	0,079920	-4,917421

